File: XRD_exp.csv
2Theta,Ortho,Tetrag
15.0045,1811.98	,1856.98
15.0565,1782.87	,1841.92
15.1085,1851.02	,1864.76
15.1605,1723.53	,1866.17
15.2125,1875.57	,1766
15.2645,1844.81	,1843.61
15.3165,1767.97	,1780.23
15.3685,1832.76	,1821.07
15.4205,1872.83	,1814.11
15.4725,1884.05	,1766.62
15.5245,1755.51	,1870.85
15.5765,1804.06	,1820.42
15.6285,1792.59	,1809.3
15.6805,1729.63	,1802.79
15.7325,1770.46	,1833.51
15.7845,1790.9	,1843.19
15.8365,1771.43	,1767.71
15.8885,1765.22	,1838.92
15.9405,1846.58	,1829.02
15.9925,1802.77	,1840.16
16.0445,1793.83	,1847.15
16.0965,1793.43	,1836.18
16.1485,1812.84	,1799.39
16.2005,1790.66	,1866.52
16.2525,1841.53	,1845.69
16.3045,1812.61	,1814.11
16.3565,1803.58	,1770.05
16.4085,1843.52	,1824.7
16.4605,1801.9	,1835.68
16.5125,1779.45	,1828.26
16.5645,1741.57	,1776.23
16.6165,1803.8	,1806.46
16.6685,1829.92	,1791.24
16.7205,1774.6	,1811.91
16.7725,1827.3	,1822.38
16.8245,1822.34	,1790.88
16.8765,1783.16	,1766.87
16.9285,1708.65	,1849.97
16.9805,1730.89	,1735.06
17.0325,1795.55	,1753.92
17.0845,1790.26	,1708.09
17.1365,1808.83	,1757.59
17.1885,1763.69	,1873.02
17.2405,1811.41	,1779.76
17.2925,1883.05	,1727.93
17.3445,1758.83	,1781.08
17.3965,1819.63	,1782.24
17.4485,1771.5	,1866.28
17.5005,1712.18	,1853.64
17.5525,1895.64	,1906.3
17.6045,1847.76	,1875.78
17.6565,1828.84	,1969.07
17.7085,1800.97	,1951.98
17.7605,1945.35	,1830.54
17.8125,1927.02	,1804.32
17.8645,1843.34	,1813.64
17.9165,1806.25	,1761.45
17.9685,1801.88	,1729.39
18.0205,1840.86	,1698.7
18.0725,1704.88	,1755.87
18.1245,1765.76	,1734.44
18.1765,1726.06	,1788.75
18.2285,1849.74	,1796.93
18.2805,1705.63	,1778.87
18.3325,1698	,1707.36
18.3845,1761.07	,1702.61
18.4365,1782.68	,1758.45
18.4885,1794.75	,1727.39
18.5405,1756.91	,1678.24
18.5925,1733.73	,1696.23
18.6445,1703.3	,1729.33
18.6965,1781.47	,1721.79
18.7485,1766.85	,1753.02
18.8005,1736.63	,1745.25
18.8525,1733.47	,1713.24
18.9045,1737.13	,1754.92
18.9565,1692.22	,1740.05
19.0085,1709.93	,1761.34
19.0605,1642.25	,1726.98
19.1125,1763.2	,1737.55
19.1645,1639.77	,1752.97
19.2165,1708.76	,1660.59
19.2685,1718.66	,1700.12
19.3205,1726.37	,1711.12
19.3725,1735.02	,1701.35
19.4245,1697.06	,1754.95
19.4765,1760.39	,1749.16
19.5285,1713.2	,1734.39
19.5805,1709.08	,1713.34
19.6325,1696.25	,1717.89
19.6845,1823.06	,1704.51
19.7365,1873.38	,1739.23
19.7885,1964.98	,1746.46
19.8405,2082.31	,1649.89
19.8925,2441.57	,1714.45
19.9445,2425.31	,1717.8
19.9965,2069.29	,1712.88
20.0485,1861.05	,1698.77
20.1005,1689.93	,1676.65
20.1525,1696.21	,1630.01
20.2045,1628.35	,1665.11
20.2565,1734.65	,1761.9
20.3085,1697.14	,1597.21
20.3605,1666.68	,1690.04
20.4125,1577.3	,1725.91
20.4645,1758.1	,1774.99
20.5165,1613.23	,1610.95
20.5685,1598.71	,1713.09
20.6205,1690.57	,1641.86
20.6725,1673.68	,1680.85
20.7245,1585.07	,1649.62
20.7765,1610.83	,1649.88
20.8285,1647.82	,1711.32
20.8805,1659.77	,1756.86
20.9325,1566.54	,1696.29
20.9845,1696.55	,1613.01
21.0365,1675.47	,1624.51
21.0885,1611.11	,1683.18
21.1405,1688.4	,1642.27
21.1925,1672.01	,1580.43
21.2445,1555.86	,1722.61
21.2965,1591.01	,1657.89
21.3485,1679.17	,1675.33
21.4005,1697.86	,1640.85
21.4525,1665.62	,1635.69
21.5045,1606.45	,1659.33
21.5565,1591.03	,1627.01
21.6085,1644.23	,1639.18
21.6605,1564.22	,1631.02
21.7125,1595.78	,1637.46
21.7645,1643.3	,1689.48
21.8165,1638.2	,1685.4
21.8685,1627.9	,1625.14
21.9205,1647.58	,1564.13
21.9725,1603.18	,1587.42
22.0245,1638.53	,1636.84
22.0765,1605.83	,1640.51
22.1285,1601.29	,1633.45
22.1805,1589.3	,1669
22.2325,1676	,1605.39
22.2845,1562.01	,1651.67
22.3365,1544.89	,1614.59
22.3885,1586.83	,1544.76
22.4405,1588.86	,1685.53
22.4925,1691.67	,1669.04
22.5445,1572.91	,1723.42
22.5965,1661.29	,1655.3
22.6485,1725.24	,1590.69
22.7005,1592.27	,1613.72
22.7525,1651.81	,1627.39
22.8045,1684.11	,1656.94
22.8565,1667.79	,1587.07
22.9085,1615.8	,1623.7
22.9605,1541.58	,1606.67
23.0125,1568.93	,1641.59
23.0645,1554.68	,1603.87
23.1165,1499.54	,1560.59
23.1685,1544.94	,1615.35
23.2205,1596.19	,1614.46
23.2725,1527.9	,1653.93
23.3245,1547.17	,1581
23.3765,1550.56	,1524.68
23.4285,1557.14	,1562.04
23.4805,1602.47	,1594.97
23.5325,1556.19	,1592.76
23.5845,1622.25	,1618
23.6365,1521.73	,1558.54
23.6885,1597.48	,1510.23
23.7405,1492.37	,1549.7
23.7925,1543.76	,1527.47
23.8445,1548.79	,1606.25
23.8965,1519.68	,1561.54
23.9485,1503.7	,1586.53
24.0005,1561.28	,1583.8
24.0525,1566.04	,1523.93
24.1045,1576.24	,1584.51
24.1565,1438.68	,1643.39
24.2085,1557.97	,1736.46
24.2605,1565.75	,1665.31
24.3125,1570.71	,1773.73
24.3645,1653.76	,1734.11
24.4165,1663.33	,1728.01
24.4685,1699.7	,1783.53
24.5205,1704.33	,1783.54
24.5725,1640.2	,1867.66
24.6245,1698.97	,1839.4
24.6765,1692.82	,2001.13
24.7285,1772.41	,2169.41
24.7805,1835.44	,2495.98
24.8325,1864.98	,3412.34
24.8845,2000.33	,5259.54
24.9365,2267.63	,8765.47
24.9885,2889.87	,16845.9
25.0405,4116.45	,24706.2
25.0925,6773.89	,22024.5
25.1445,11425	,17744.7
25.1965,20425.1	,10655.5
25.2485,27659	,5542.05
25.3005,22038	,3084.22
25.3525,13840.4	,2291.81
25.4045,8104.39	,2029.38
25.4565,4695.02	,1971.48
25.5085,3016.18	,1872.69
25.5605,2283.49	,1754.47
25.6125,1980.14	,1663.83
25.6645,1890.05	,1702.1
25.7165,1705.17	,1664.49
25.7685,1652.48	,1603.42
25.8205,1588.16	,1737.26
25.8725,1665.62	,1678.72
25.9245,1681.7	,1566.86
25.9765,1603.88	,1649.65
26.0285,1621.87	,1584.16
26.0805,1568.55	,1569.99
26.1325,1598.66	,1543.23
26.1845,1541.08	,1592.67
26.2365,1514.33	,1474.24
26.2885,1563.87	,1587.44
26.3405,1527.77	,1582.72
26.3925,1498.3	,1472.05
26.4445,1545.97	,1500.67
26.4965,1494.08	,1545.76
26.5485,1595.02	,1556.33
26.6005,1626.14	,1445.27
26.6525,1760.17	,1497.52
26.7045,1930.21	,1527.03
26.7565,2208.28	,1478.84
26.8085,2046	,1495.72
26.8605,1696.88	,1472.35
26.9125,1543.24	,1471.72
26.9645,1518.98	,1523.44
27.0165,1439.38	,1470.97
27.0685,1448.06	,1515.85
27.1205,1460.04	,1463.31
27.1725,1474.42	,1397.13
27.2245,1431.47	,1477.98
27.2765,1395.06	,1493.14
27.3285,1525.91	,1479.6
27.3805,1418.1	,1450.69
27.4325,1472.15	,1491.3
27.4845,1416.89	,1503.33
27.5365,1456.42	,1550.98
27.5885,1376.64	,1439.55
27.6405,1451.63	,1474.34
27.6925,1445.9	,1501.59
27.7445,1408.66	,1443.74
27.7965,1379.64	,1515.18
27.8485,1410.53	,1469.01
27.9005,1405.3	,1456.39
27.9525,1414.89	,1488.08
28.0045,1453.08	,1412.95
28.0565,1397.79	,1409.75
28.1085,1384.02	,1527.99
28.1605,1406.92	,1422.68
28.2125,1554.75	,1472.93
28.2645,1664.73	,1440.79
28.3165,1638.91	,1405.26
28.3685,1576.91	,1416.22
28.4205,1508.04	,1418.13
28.4725,1541.46	,1392.35
28.5245,1446.1	,1425.47
28.5765,1386.07	,1412.7
28.6285,1391.23	,1517
28.6805,1375.81	,1450.04
28.7325,1379.9	,1461.26
28.7845,1400.53	,1418.35
28.8365,1383.72	,1421.75
28.8885,1402.87	,1402.14
28.9405,1381.08	,1410.73
28.9925,1388.32	,1428.47
29.0445,1356.96	,1415.9
29.0965,1389.73	,1380
29.1485,1353.17	,1382.34
29.2005,1370.65	,1384.63
29.2525,1343.57	,1413.51
29.3045,1319.68	,1421.53
29.3565,1342.8	,1457.84
29.4085,1372.61	,1503.97
29.4605,1386.73	,1546.74
29.5125,1419.88	,1779.13
29.5645,1474.59	,1848.91
29.6165,1700.79	,1736.73
29.6685,2018.15	,1525.81
29.7205,2170.11	,1430.84
29.7725,2230.83	,1440.01
29.8245,1922.78	,1423.44
29.8765,1702.19	,1409.85
29.9285,1482.63	,1388.83
29.9805,1418.06	,1386.54
30.0325,1444.61	,1445.81
30.0845,1377.86	,1367.32
30.1365,1296.82	,1394.71
30.1885,1381.27	,1428.59
30.2405,1328.85	,1396.61
30.2925,1288.51	,1387.84
30.3445,1351.8	,1402.78
30.3965,1363.8	,1339.34
30.4485,1388.57	,1381.44
30.5005,1357.35	,1437.09
30.5525,1352.96	,1542.56
30.6045,1369.89	,1694.28
30.6565,1391.69	,1959.01
30.7085,1382.72	,2317.35
30.7605,1496.06	,3760.6
30.8125,1581.78	,6335.98
30.8645,1829.18	,5481.85
30.9165,2481.9	,4074.36
30.9685,3555.16	,2379.49
31.0205,4162.97	,1712.31
31.0725,4190.88	,1545.64
31.1245,4275.28	,1497.39
31.1765,3446.55	,1440.02
31.2285,2647.83	,1425.86
31.2805,1858.36	,1449.2
31.3325,1580.58	,1363.14
31.3845,1456.36	,1408.68
31.4365,1370.91	,1359.7
31.4885,1375.35	,1367.78
31.5405,1352.37	,1327.72
31.5925,1320.68	,1355.45
31.6445,1278	,1361.17
31.6965,1290.89	,1312.48
31.7485,1341.39	,1349.39
31.8005,1277.44	,1371.75
31.8525,1294.4	,1332.01
31.9045,1275.96	,1287.82
31.9565,1324.84	,1351.01
32.0085,1282.86	,1431.04
32.0605,1282.63	,1342.19
32.1125,1285.4	,1286.08
32.1645,1345.48	,1310.64
32.2165,1424.17	,1345.5
32.2685,1534.88	,1360.59
32.3205,1802.61	,1350.89
32.3725,1782.88	,1351.85
32.4245,1597.6	,1382.09
32.4765,1436.75	,1383.76
32.5285,1341.45	,1337.08
32.5805,1254.04	,1329.23
32.6325,1320.19	,1322.65
32.6845,1270.59	,1328.48
32.7365,1319.5	,1233.1
32.7885,1233.57	,1265.4
32.8405,1255.91	,1317.17
32.8925,1215.04	,1322.57
32.9445,1245.63	,1265.31
32.9965,1243.52	,1270
33.0485,1163.05	,1215.83
33.1005,1223.02	,1357.33
33.1525,1254.51	,1284.53
33.2045,1223.42	,1308.5
33.2565,1234.97	,1277.94
33.3085,1268.64	,1247.26
33.3605,1229.09	,1271.32
33.4125,1224.75	,1267.54
33.4645,1250.83	,1299.86
33.5165,1415.84	,1244.58
33.5685,1524.15	,1317.76
33.6205,1624.73	,1367.45
33.6725,1590.27	,1213.84
33.7245,1446.22	,1327.28
33.7765,1381.65	,1280.2
33.8285,1294.21	,1259.32
33.8805,1262.25	,1270.64
33.9325,1207.65	,1310.8
33.9845,1237.09	,1292.42
34.0365,1232.41	,1272.03
34.0885,1250.12	,1273.93
34.1405,1241.84	,1300.02
34.1925,1255.75	,1315.23
34.2445,1246.17	,1262.01
34.2965,1225.76	,1289.6
34.3485,1200.72	,1291.96
34.4005,1248.48	,1320.44
34.4525,1228.52	,1287.09
34.5045,1168.62	,1327.98
34.5565,1221.6	,1332.2
34.6085,1174.12	,1356.19
34.6605,1229.11	,1335.98
34.7125,1297.93	,1332.5
34.7645,1234.12	,1374.08
34.8165,1239.85	,1376.38
34.8685,1252.56	,1285.82
34.9205,1242	,1413.76
34.9725,1275.07	,1314.45
35.0245,1263.65	,1403.38
35.0765,1245.69	,1374.82
35.1285,1302.33	,1395.1
35.1805,1194.12	,1441.51
35.2325,1251.13	,1501.91
35.2845,1289.3	,1622
35.3365,1284.09	,1808.26
35.3885,1313.02	,2222.09
35.4405,1314.01	,3207.99
35.4925,1395.67	,5164.64
35.5445,1364.07	,6239.9
35.5965,1427.95	,4895.69
35.6485,1522.71	,4168.97
35.7005,1647.58	,3589.23
35.7525,1771	,4618.39
35.8045,2407.26	,8385.66
35.8565,3466.86	,11080.6
35.9085,6243.52	,8041.87
35.9605,10321.8	,5796.49
36.0125,12580.2	,2962.68
36.0645,13741.8	,1964.38
36.1165,9157.29	,1667.49
36.1685,6008.14	,1535.86
36.2205,3136.11	,1460.42
36.2725,2062.96	,1425.85
36.3245,1731.01	,1278.55
36.3765,1429.81	,1357.47
36.4285,1360.41	,1294.55
36.4805,1397.21	,1320.93
36.5325,1328.54	,1266.18
36.5845,1330.06	,1273.07
36.6365,1238.45	,1291.54
36.6885,1292.29	,1308.42
36.7405,1229.9	,1249.93
36.7925,1269.52	,1241.57
36.8445,1291.76	,1234.31
36.8965,1313.39	,1277.96
36.9485,1308.78	,1274.93
37.0005,1473.98	,1275.55
37.0525,1761.98	,1255.38
37.1045,2077.11	,1206.46
37.1565,2242.44	,1258.14
37.2085,2220.26	,1217.1
37.2605,1837.11	,1233.52
37.3125,1624.83	,1258.77
37.3645,1358.45	,1249.35
37.4165,1272.62	,1211.36
37.4685,1239.74	,1214.93
37.5205,1251.92	,1243.19
37.5725,1130.8	,1242.72
37.6245,1186.48	,1208.33
37.6765,1158.18	,1235.97
37.7285,1170.25	,1235.26
37.7805,1098.56	,1233.77
37.8325,1164.43	,1210.94
37.8845,1144.3	,1245.06
37.9365,1166.74	,1219.33
37.9885,1133.48	,1273.8
38.0405,1163.44	,1237.13
38.0925,1087.43	,1223.14
38.1445,1125.9	,1249.21
38.1965,1168.46	,1268.11
38.2485,1141.96	,1213.6
38.3005,1110.15	,1235.31
38.3525,1155.44	,1282.11
38.4045,1199.04	,1255.47
38.4565,1101.96	,1262.55
38.5085,1138.8	,1224.19
38.5605,1134.31	,1327.21
38.6125,1153.1	,1225.25
38.6645,1146.86	,1188.68
38.7165,1162.94	,1185.14
38.7685,1130.55	,1254.73
38.8205,1148.81	,1251.62
38.8725,1174.35	,1266.01
38.9245,1185.72	,1273.57
38.9765,1129.24	,1315.11
39.0285,1176.41	,1372.49
39.0805,1193.32	,1379.84
39.1325,1142.01	,1363.38
39.1845,1163.09	,1390.4
39.2365,1229.74	,1423.13
39.2885,1277.01	,1602.2
39.3405,1349.02	,1931.62
39.3925,1451.14	,2626.64
39.4445,1445.49	,5060.73
39.4965,1484.75	,8842.61
39.5485,1673.08	,7157.27
39.6005,2015.62	,5579.64
39.6525,2842.95	,3586.86
39.7045,5336.28	,1951.32
39.7565,8480.28	,1538.88
39.8085,7033.34	,1351.42
39.8605,5635.08	,1326.22
39.9125,3621.44	,1322.38
39.9645,1994.57	,1342.97
40.0165,1493.72	,1294.65
40.0685,1329.18	,1223
40.1205,1265.37	,1207.63
40.1725,1217.8	,1280.36
40.2245,1205.99	,1304.25
40.2765,1244.45	,1279.72
40.3285,1214.82	,1278.98
40.3805,1346.97	,1224.3
40.4325,1320.93	,1199.45
40.4845,1243.93	,1202.08
40.5365,1235.12	,1209.16
40.5885,1190.24	,1219.8
40.6405,1173.64	,1189.04
40.6925,1086.67	,1186.33
40.7445,1082.11	,1215.13
40.7965,1082.81	,1119.05
40.8485,1129.85	,1208.28
40.9005,1129.19	,1209.55
40.9525,1145.35	,1148.37
41.0045,1074.62	,1241.47
41.0565,1087.28	,1169.65
41.1085,1168.42	,1144.55
41.1605,1119.54	,1190.46
41.2125,1255.83	,1115.08
41.2645,1312.62	,1201.15
41.3165,1514.31	,1212.7
41.3685,1854.88	,1198.46
41.4205,2201	,1107.19
41.4725,1886.86	,1171.85
41.5245,1733.31	,1140.63
41.5765,1509.71	,1135.1
41.6285,1322.94	,1139.38
41.6805,1279.14	,1183.97
41.7325,1245.4	,1128.62
41.7845,1142.07	,1153.91
41.8365,1136.93	,1189.43
41.8885,1090.13	,1120.37
41.9405,1085.59	,1172.9
41.9925,1097.93	,1169.18
42.0445,1108.26	,1117.33
42.0965,1020.36	,1115.36
42.1485,1027.62	,1146.85
42.2005,1046.22	,1142.84
42.2525,1033.55	,1108.05
42.3045,1052.81	,1139.41
42.3565,1035.88	,1146.46
42.4085,996.885	,1139.05
42.4605,1023.83	,1142.9
42.5125,1039.83	,1098.38
42.5645,1146.69	,1131.02
42.6165,1058.31	,1145.82
42.6685,1025.65	,1152.14
42.7205,1028.95	,1145.25
42.7725,1046.86	,1105.47
42.8245,1018.63	,1164.9
42.8765,1048.07	,1171.67
42.9285,1075.99	,1180.77
42.9805,1111.15	,1157.74
43.0325,1062.29	,1142.64
43.0845,1050.5	,1177.75
43.1365,1092.1	,1182.08
43.1885,1111.38	,1120.56
43.2405,1049.33	,1194.73
43.2925,1042.17	,1204.35
43.3445,1049.28	,1189.19
43.3965,1063.86	,1172.81
43.4485,1081.23	,1222.02
43.5005,1101.76	,1189.89
43.5525,1049.54	,1164.89
43.6045,1056.18	,1262.07
43.6565,1090.07	,1293.89
43.7085,1081.78	,1327.6
43.7605,1076.46	,1405.32
43.8125,1117.28	,1538.75
43.8645,1132.41	,1829.64
43.9165,1159.36	,2402.02
43.9685,1139.41	,3796.4
44.0205,1236.86	,5412.15
44.0725,1246.59	,4491.04
44.1245,1333.57	,5669.1
44.1765,1512.76	,8051.54
44.2285,1749.5	,8535.01
44.2805,2246.87	,6014.39
44.3325,3503.9	,5354.82
44.3845,6014.91	,3328.12
44.4365,7471.39	,2008.55
44.4885,7403.28	,1657.8
44.5405,8133.04	,1445.47
44.5925,7853.69	,1397.97
44.6445,6933.73	,1315.34
44.6965,5063.21	,1304.48
44.7485,4051.79	,1199.15
44.8005,2645.33	,1246.33
44.8525,1975.09	,1159.32
44.9045,1572.67	,1218.96
44.9565,1370.26	,1211.57
45.0085,1334.12	,1140.11
45.0605,1166.69	,1181.07
45.1125,1131.22	,1192.28
45.1645,1127.55	,1136.74
45.2165,1112.37	,1169.09
45.2685,1108.93	,1185.92
45.3205,1120.7	,1117.76
45.3725,1144.76	,1146.33
45.4245,1220.6	,1170.71
45.4765,1255.21	,1201.29
45.5285,1180.61	,1145.17
45.5805,1192.2	,1165.27
45.6325,1113.8	,1188.99
45.6845,1100.6	,1248.91
45.7365,1090.16	,1357.51
45.7885,1059.13	,1509.96
45.8405,1101.92	,1866.33
45.8925,1058.01	,2642.44
45.9445,1149.09	,3048.01
45.9965,1172.89	,2585.37
46.0485,1352.97	,2358.47
46.1005,1529.8	,1891.23
46.1525,1918.79	,1442.36
46.2045,2678.12	,1326.72
46.2565,3017.83	,1164.52
46.3085,2525.33	,1167.82
46.3605,2291.53	,1082.47
46.4125,1893.22	,1213.32
46.4645,1373.09	,1070.15
46.5165,1226.03	,1049.67
46.5685,1169.34	,1102.69
46.6205,1084.95	,1087.69
46.6725,1006.53	,1115.5
46.7245,1049.17	,1103.95
46.7765,1025.61	,1070.48
46.8285,1065.25	,1012.97
46.8805,1009.91	,1063.02
46.9325,968.638	,1109.56
46.9845,921.664	,1060.12
47.0365,954.922	,1089.12
47.0885,996.243	,1131.35
47.1405,994.552	,1130.53
47.1925,1004.52	,1075.94
47.2445,1040.04	,1076.97
47.2965,1070.26	,1079.73
47.3485,1054.41	,1043.26
47.4005,1048.99	,1079.85
47.4525,1059.16	,1056.07
47.5045,1004.6	,1028.19
47.5565,979.184	,1046.91
47.6085,962.985	,993.565
47.6605,985.19	,1033.88
47.7125,945.097	,1046.49
47.7645,957.48	,1055.55
47.8165,959.662	,1066.35
47.8685,931.337	,1052.21
47.9205,936.43	,1042.49
47.9725,923.672	,1021.69
48.0245,941.289	,1051.54
48.0765,987.85	,1003.77
48.1285,922.215	,1035.93
48.1805,987.282	,1039
48.2325,925.2	,1052.18
48.2845,930.915	,1059.93
48.3365,929.086	,999.541
48.3885,910.811	,1076.5
48.4405,970.891	,1065.44
48.4925,947.525	,1039.68
48.5445,976.216	,1005.02
48.5965,935.724	,1000.17
48.6485,941.925	,1124.29
48.7005,973.081	,1048.25
48.7525,873.11	,1047.15
48.8045,983.267	,1023.35
48.8565,972.947	,1027.59
48.9085,991.35	,1035.85
48.9605,1009.92	,993.22
49.0125,1120.67	,979.921
49.0645,1353.3	,1047.05
49.1165,1396.21	,1007.18
49.1685,1303.78	,995.788
49.2205,1204.03	,1003.35
49.2725,1132.56	,1021.81
49.3245,1029.99	,1023.67
49.3765,904.483	,991.142
49.4285,980.263	,1042.01
49.4805,938.048	,1059.1
49.5325,985.975	,1028.21
49.5845,920.4	,1043.25
49.6365,939.915	,1057.16
49.6885,932.116	,1038.41
49.7405,947.997	,1026.49
49.7925,938.319	,1036.71
49.8445,906.435	,1074.02
49.8965,913.749	,1045.9
49.9485,942.199	,1040.21
50.0005,923.773	,1040.14
50.0525,908.766	,991.012
50.1045,973.105	,1025.49
50.1565,932.517	,1041.33
50.2085,917.659	,1043.01
50.2605,927.737	,1042.01
50.3125,955.526	,1083.22
50.3645,952.938	,1024.38
50.4165,907.774	,1002.26
50.4685,905.253	,1078.23
50.5205,948.914	,1035.74
50.5725,930.053	,1014.52
50.6245,939.548	,1054.78
50.6765,892.527	,1059.22
50.7285,915.176	,1037.01
50.7805,934.823	,1035.68
50.8325,996.604	,1049.09
50.8845,925.319	,1038.86
50.9365,964.833	,1070.25
50.9885,950.009	,1093.26
51.0405,913.226	,1120.51
51.0925,939.743	,1322.7
51.1445,923.982	,1305.61
51.1965,924.791	,1620.37
51.2485,970.75	,2179.39
51.3005,977.907	,3627.21
51.3525,981.603	,5320.15
51.4045,1007.63	,3765.66
51.4565,1057.07	,3731.66
51.5085,1139.71	,3976.23
51.5605,1306.99	,3641.98
51.6125,1592.74	,3283.73
51.6645,2044.11	,2321.93
51.7165,2958.92	,2302.13
51.7685,4109.56	,1827.88
51.8205,5756.87	,1440.01
51.8725,5051.89	,1187.66
51.9245,3881.16	,1146.83
51.9765,3858.56	,1131.24
52.0285,2993.51	,1057.59
52.0805,2496.62	,1157.17
52.1325,1954.54	,1141.46
52.1845,1701.97	,1076.43
52.2365,1547.5	,1031.62
52.2885,1374.47	,1008.98
52.3405,1146.76	,1006.47
52.3925,1072.03	,1016.76
52.4445,1098.58	,1033.67
52.4965,1168.67	,1026.38
52.5485,1283.35	,989.2
52.6005,1344.99	,1028.6
52.6525,1178.33	,941.725
52.7045,1210.85	,992.43
52.7565,1132.06	,995.27
52.8085,990.634	,980.083
52.8605,947.241	,934.393
52.9125,915.273	,994.339
52.9645,929.736	,935.033
53.0165,934.057	,954.692
53.0685,847.535	,945.109
53.1205,862.185	,960.853
53.1725,899.347	,977.989
53.2245,889.935	,996.179
53.2765,909.134	,1007.23
53.3285,910.632	,991.633
53.3805,916.849	,949.52
53.4325,985.099	,955.011
53.4845,963.46	,979.418
53.5365,931.273	,998.114
53.5885,922.819	,960.356
53.6405,968.611	,986.717
53.6925,925.237	,948.661
53.7445,963.654	,987.147
53.7965,903.206	,1051.38
53.8485,881.395	,981.183
53.9005,938.507	,1027.85
53.9525,918.094	,1014.6
54.0045,824.934	,1010.55
54.0565,842.232	,1002.46
54.1085,851.775	,1088.39
54.1605,848.934	,1123.14
54.2125,948.816	,1031.34
54.2645,981.01	,1067.36
54.3165,1106.83	,1027.87
54.3685,1207.93	,1008.37
54.4205,1149.6	,1004.07
54.4725,1179.78	,936.798
54.5245,1055.92	,972.744
54.5765,1029.85	,943.464
54.6285,1050.06	,953.868
54.6805,933.708	,1013.32
54.7325,945.039	,976.17
54.7845,897.702	,1018.2
54.8365,922.776	,985.781
54.8885,901.006	,1020.72
54.9405,892.081	,1003.6
54.9925,913.3	,1006.15
55.0445,901.317	,981.711
55.0965,929.005	,907.914
55.1485,1012.05	,939.527
55.2005,949.036	,947.677
55.2525,926.678	,928.916
55.3045,964.072	,939.182
55.3565,909.789	,962.001
55.4085,913.973	,930.882
55.4605,894.833	,912.545
55.5125,862.156	,934.533
55.5645,885.729	,978.625
55.6165,863.409	,958.908
55.6685,884.114	,900.301
55.7205,865.156	,897.244
55.7725,851.881	,920.733
55.8245,869.023	,991.117
55.8765,847.731	,937.388
55.9285,884.535	,931.004
55.9805,875.928	,947.68
56.0325,976.166	,929.054
56.0845,1074.72	,925.406
56.1365,1114.61	,977.278
56.1885,1027.59	,920.344
56.2405,1079.74	,892.385
56.2925,991.451	,941.879
56.3445,931.221	,923.723
56.3965,889.672	,964.323
56.4485,915.72	,959.94
56.5005,869.266	,1013.06
56.5525,851.853	,942.221
56.6045,860.752	,971.872
56.6565,886.201	,969.394
56.7085,878.26	,905.99
56.7605,961.521	,931.277
56.8125,876.271	,950.836
56.8645,930.153	,970.028
56.9165,891.539	,1030.57
56.9685,943.738	,935.197
57.0205,898.937	,902.9
57.0725,902.75	,923.744
57.1245,881.857	,952.193
57.1765,898.785	,937.731
57.2285,842.144	,927.372
57.2805,830.629	,964.792
57.3325,880.245	,1019.73
57.3845,883.087	,984.62
57.4365,861.451	,996.075
57.4885,824.085	,1011.47
57.5405,830.159	,1017.61
57.5925,859.941	,1123.43
57.6445,898.657	,1281.48
57.6965,878.655	,1657.1
57.7485,822.82	,1651.26
57.8005,884.643	,1426.8
57.8525,889.062	,1465.21
57.9045,881.529	,1383.19
57.9565,820.848	,1275.62
58.0085,849.595	,1261.59
58.0605,910.595	,1408.88
58.1125,954.993	,1777.88
58.1645,974.559	,2455.1
58.2165,1041.55	,2537.85
58.2685,1184.52	,2070.08
58.3205,1365.87	,1906.04
58.3725,1959.78	,1868.31
58.4245,2761.08	,1453.09
58.4765,2791.72	,1193.38
58.5285,2679.3	,1069.36
58.5805,2804.8	,979.93
58.6325,2542.37	,1015.72
58.6845,2251.07	,981.94
58.7365,2015.74	,963.046
58.7885,1546.54	,969.334
58.8405,1390.31	,953.67
58.8925,1225.69	,918.012
58.9445,1119.08	,971.39
58.9965,999.91	,908.544
59.0485,972.254	,965.38
59.1005,1001.04	,956.24
59.1525,1167.99	,936.17
59.2045,1307.78	,916.48
59.2565,1428.74	,906.68
59.3085,1349.95	,954.217
59.3605,1239.79	,887.291
59.4125,1091.27	,923.951
59.4645,1203.09	,949.867
59.5165,1033.37	,947.565
59.5685,960.7	,907.055
59.6205,930.368	,899.407
59.6725,972.913	,890.123
59.7245,855.58	,876.272
59.7765,899.161	,948.594
59.8285,856.324	,937.23
59.8805,823.986	,942.351
59.9325,849.085	,870.29
59.9845,873.386	,967.429
60.0365,880.708	,917.684
60.0885,924.456	,947.954
60.1405,883.2	,922.311
60.1925,865.416	,971.272
60.2445,887.181	,930.035
60.2965,857.46	,929.868
60.3485,899.603	,903.219
60.4005,793.951	,1018.2
60.4525,804.435	,974.566
60.5045,773.638	,969.113
60.5565,832.524	,899.354
60.6085,811.776	,957.082
60.6605,810.687	,918.103
60.7125,840.44	,980.601
60.7645,829.654	,950.103
60.8165,882.496	,1009.54
60.8685,859.954	,1027.64
60.9205,921.801	,1027.55
60.9725,896.953	,952.75